Folder: phd_code/Chapter4_Crystallinity-measurement/data/DSC (part 4)

File: HDPE_2.csv
Time,Unsubtracted Heat Flow,Baseline Heat Flow,Program Temperature,Sample Temperature,Approx. Gas Flow,Heat Flow Calibration,Uncorrected Heat Flow,
0.0,2.0739,0.0,30.0,31.087,0.0,1.0,2.0739,
2.452333,2.4708,0.0,32.237,33.02,0.0,1.0,2.4708,
3.502333,2.7531,0.0,37.479,38.204,0.0,1.0,2.7531,
4.552333,3.05,0.0,42.72,43.395,0.0,1.0,3.05,
5.602333,3.3369,0.0,47.962,48.604,0.0,1.0,3.3369,
6.652333,3.634,0.0,53.204,53.808,0.0,1.0,3.634,
7.702333,3.9243,0.0,58.445,59.029,0.0,1.0,3.9243,
8.752333,4.2286,0.0,63.687,64.245,0.0,1.0,4.2286,
9.802333,4.5322,0.0,68.929,69.479,0.0,1.0,4.5322,
10.8523,4.8457,0.0,74.17,74.712,0.0,1.0,4.8457,
11.9023,5.1645,0.0,79.412,79.945,0.0,1.0,5.1645,
12.9523,5.4808,0.0,84.654,85.187,0.0,1.0,5.4808,
14.0023,5.8082,0.0,89.895,90.4,0.0,1.0,5.8082,
15.0523,6.1422,0.0,95.137,95.633,0.0,1.0,6.1422,
16.1023,6.4903,0.0,100.379,100.858,0.0,1.0,6.4903,
17.1523,6.8512,0.0,105.62,106.087,0.0,1.0,6.8512,
18.2023,7.2582,0.0,110.862,111.316,0.0,1.0,7.2582,
19.2523,7.8004,0.0,116.104,116.558,0.0,1.0,7.8004,
20.3023,8.7264,0.0,121.345,121.787,0.0,1.0,8.7264,
21.3523,11.745,0.0,126.583,127.016,0.0,1.0,11.745,
22.4023,8.2366,0.0,131.825,132.266,0.0,1.0,8.2366,
23.4523,8.5743,0.0,137.066,137.512,0.0,1.0,8.5743,
24.5023,8.9074,0.0,142.308,142.745,0.0,1.0,8.9074,
25.5523,9.2441,0.0,147.55,147.979,0.0,1.0,9.2441,
26.6023,9.5807,0.0,152.791,153.204,0.0,1.0,9.5807,
27.6523,9.9239,0.0,158.033,158.445,0.0,1.0,9.9239,
28.7023,10.2754,0.0,163.275,163.683,0.0,1.0,10.2754,
29.7523,10.6272,0.0,168.516,168.92,0.0,1.0,10.6272,
30.8023,10.9823,0.0,173.758,174.162,0.0,1.0,10.9823,
31.8523,11.3534,0.0,179.0,179.404,0.0,1.0,11.3534,
32.9023,11.724,0.0,184.241,184.641,0.0,1.0,11.724,
33.9523,12.1088,0.0,189.483,189.891,0.0,1.0,12.1088,
35.0023,12.5015,0.0,194.725,195.129,0.0,1.0,12.5015,
36.0523,12.8931,0.0,199.966,200.358,0.0,1.0,12.8931,
37.1023,11.3982,0.0,194.791,195.47,0.0,1.0,11.3982,
38.1523,11.0074,0.0,189.55,190.229,0.0,1.0,11.0074,
39.2023,10.6266,0.0,184.308,184.991,0.0,1.0,10.6266,
40.2523,10.2565,0.0,179.066,179.754,0.0,1.0,10.2565,
41.3023,9.8949,0.0,173.825,174.52,0.0,1.0,9.8949,
42.3523,9.5463,0.0,168.583,169.279,0.0,1.0,9.5463,
43.4023,9.2085,0.0,163.341,164.037,0.0,1.0,9.2085,
44.4523,8.8498,0.0,158.1,158.808,0.0,1.0,8.8498,
45.5023,8.5075,0.0,152.858,153.57,0.0,1.0,8.5075,
46.5523,8.1646,0.0,147.616,148.35,0.0,1.0,8.1646,
47.6023,7.8246,0.0,142.375,143.125,0.0,1.0,7.8246,
48.6523,7.4837,0.0,137.133,137.9,0.0,1.0,7.4837,
49.7023,7.1507,0.0,131.891,132.666,0.0,1.0,7.1507,
50.7523,6.822,0.0,126.65,127.429,0.0,1.0,6.822,
51.8023,6.0861,0.0,121.408,122.195,0.0,1.0,6.0861,
52.8523,3.4664,0.0,116.166,116.97,0.0,1.0,3.4664,
53.9023,5.1011,0.0,110.925,111.745,0.0,1.0,5.1011,
54.9523,5.1249,0.0,105.683,106.52,0.0,1.0,5.1249,
56.0023,4.9702,0.0,100.441,101.3,0.0,1.0,4.9702,
57.0523,4.7466,0.0,95.204,96.083,0.0,1.0,4.7466,
58.1023,4.4915,0.0,89.962,90.866,0.0,1.0,4.4915,
59.1523,4.2202,0.0,84.72,85.658,0.0,1.0,4.2202,
60.2023,3.9628,0.0,79.479,80.437,0.0,1.0,3.9628,
61.2523,3.7379,0.0,74.237,75.22,0.0,1.0,3.7379,
62.3023,3.5023,0.0,68.995,69.991,0.0,1.0,3.5023,
63.3523,3.2588,0.0,63.754,64.779,0.0,1.0,3.2588,
64.4023,3.0152,0.0,58.512,59.575,0.0,1.0,3.0152,
65.4523,2.7724,0.0,53.27,54.375,0.0,1.0,2.7724,
66.5023,2.5428,0.0,48.029,49.191,0.0,1.0,2.5428,
67.5523,2.3228,0.0,42.787,44.012,0.0,1.0,2.3228,
68.6023,2.1164,0.0,37.545,38.858,0.0,1.0,2.1164,
69.6523,1.9505,0.0,32.304,33.733,0.0,1.0,1.9505,
70.7023,2.3396,0.0,32.933,33.795,0.0,1.0,2.3396,
71.7523,2.6086,0.0,38.175,38.979,0.0,1.0,2.6086,
72.8023,2.8825,0.0,43.416,44.17,0.0,1.0,2.8825,
73.8523,3.1684,0.0,48.658,49.375,0.0,1.0,3.1684,
74.9023,3.4536,0.0,53.9,54.587,0.0,1.0,3.4536,
75.9523,3.7398,0.0,59.141,59.804,0.0,1.0,3.7398,
77.0023,4.0286,0.0,64.379,65.029,0.0,1.0,4.0286,
78.0523,4.3261,0.0,69.62,70.258,0.0,1.0,4.3261,
79.1023,4.6314,0.0,74.862,75.487,0.0,1.0,4.6314,
80.1523,4.9582,0.0,80.104,80.716,0.0,1.0,4.9582,
81.2023,5.2821,0.0,85.345,85.95,0.0,1.0,5.2821,
82.2523,5.6174,0.0,90.587,91.166,0.0,1.0,5.6174,
83.3023,5.9637,0.0,95.829,96.387,0.0,1.0,5.9637,
84.3523,6.3229,0.0,101.07,101.612,0.0,1.0,6.3229,
85.4023,6.7091,0.0,106.312,106.833,0.0,1.0,6.7091,
86.4523,7.1372,0.0,111.554,112.066,0.0,1.0,7.1372,
87.5023,7.6881,0.0,116.795,117.295,0.0,1.0,7.6881,
88.5523,8.6722,0.0,122.037,122.52,0.0,1.0,8.6722,
89.6023,10.9277,0.0,127.279,127.754,0.0,1.0,10.9277,
90.6523,8.1403,0.0,132.52,133.0,0.0,1.0,8.1403,
91.7023,8.4625,0.0,137.762,138.237,0.0,1.0,8.4625,
92.7523,8.8135,0.0,143.004,143.475,0.0,1.0,8.8135,
93.8023,9.1619,0.0,148.245,148.704,0.0,1.0,9.1619,
94.8523,9.5235,0.0,153.487,153.92,0.0,1.0,9.5235,
95.9023,9.8841,0.0,158.729,159.154,0.0,1.0,9.8841,
96.9523,10.2412,0.0,163.97,164.395,0.0,1.0,10.2412,
98.0023,10.6189,0.0,169.212,169.629,0.0,1.0,10.6189,
99.0523,10.9925,0.0,174.454,174.87,0.0,1.0,10.9925,
100.102,11.3748,0.0,179.695,180.104,0.0,1.0,11.3748,
101.152,11.7554,0.0,184.937,185.341,0.0,1.0,11.7554,
102.202,12.1446,0.0,190.175,190.583,0.0,1.0,12.1446,
103.252,12.5336,0.0,195.416,195.829,0.0,1.0,12.5336,
104.302,11.968,0.0,199.337,199.995,0.0,1.0,11.968,
105.352,11.3356,0.0,194.095,194.779,0.0,1.0,11.3356,
106.402,10.9512,0.0,188.854,189.533,0.0,1.0,10.9512,
107.452,10.5905,0.0,183.612,184.287,0.0,1.0,10.5905,
108.502,10.2326,0.0,178.37,179.05,0.0,1.0,10.2326,
109.552,9.8821,0.0,173.129,173.82,0.0,1.0,9.8821,
110.602,9.5342,0.0,167.887,168.579,0.0,1.0,9.5342,
111.652,9.1947,0.0,162.645,163.341,0.0,1.0,9.1947,
112.702,8.8554,0.0,157.408,158.104,0.0,1.0,8.8554,
113.752,8.5228,0.0,152.166,152.87,0.0,1.0,8.5228,
114.802,8.1937,0.0,146.925,147.641,0.0,1.0,8.1937,
115.852,7.8681,0.0,141.683,142.412,0.0,1.0,7.8681,
116.902,7.5428,0.0,136.441,137.179,0.0,1.0,7.5428,
117.952,7.2265,0.0,131.2,131.945,0.0,1.0,7.2265,
119.002,6.9142,0.0,125.958,126.704,0.0,1.0,6.9142,
120.052,4.8531,0.0,120.716,121.47,0.0,1.0,4.8531,
121.102,4.2115,0.0,115.475,116.241,0.0,1.0,4.2115,
122.152,5.3096,0.0,110.233,111.008,0.0,1.0,5.3096,
123.202,5.3089,0.0,104.991,105.779,0.0,1.0,5.3089,
124.252,5.1568,0.0,99.75,100.554,0.0,1.0,5.1568,
125.302,4.9491,0.0,94.508,95.329,0.0,1.0,4.9491,
126.352,4.7136,0.0,89.266,90.104,0.0,1.0,4.7136,
127.402,4.4621,0.0,84.025,84.887,0.0,1.0,4.4621,
128.452,4.2285,0.0,78.783,79.654,0.0,1.0,4.2285,
129.502,4.0095,0.0,73.541,74.42,0.0,1.0,4.0095,
130.552,3.7722,0.0,68.3,69.2,0.0,1.0,3.7722,
131.602,3.5279,0.0,63.058,63.979,0.0,1.0,3.5279,
132.652,3.2848,0.0,57.816,58.77,0.0,1.0,3.2848,
133.702,3.0446,0.0,52.575,53.558,0.0,1.0,3.0446,
134.752,2.8137,0.0,47.333,48.366,0.0,1.0,2.8137,
135.802,2.5848,0.0,42.091,43.179,0.0,1.0,2.5848,
136.852,2.3662,0.0,36.85,38.012,0.0,1.0,2.3662,
137.902,2.1657,0.0,31.612,32.858,0.0,1.0,2.1657,
138.952,2.705,0.0,33.625,34.333,0.0,1.0,2.705,
140.002,2.9839,0.0,38.866,39.533,0.0,1.0,2.9839,
141.052,3.2626,0.0,44.108,44.733,0.0,1.0,3.2626,
142.102,3.5368,0.0,49.35,49.95,0.0,1.0,3.5368,
143.152,3.8147,0.0,54.591,55.158,0.0,1.0,3.8147,
144.202,4.0972,0.0,59.833,60.395,0.0,1.0,4.0972,
145.252,4.3756,0.0,65.075,65.62,0.0,1.0,4.3756,
146.302,4.6572,0.0,70.316,70.862,0.0,1.0,4.6572,
147.352,4.9478,0.0,75.558,76.1,0.0,1.0,4.9478,
148.402,5.2338,0.0,80.8,81.35,0.0,1.0,5.2338,
149.452,5.5316,0.0,86.041,86.591,0.0,1.0,5.5316,
150.502,5.8504,0.0,91.283,91.804,0.0,1.0,5.8504,
151.552,6.1601,0.0,96.525,97.045,0.0,1.0,6.1601,
152.602,6.4855,0.0,101.766,102.279,0.0,1.0,6.4855,
153.652,6.825,0.0,107.008,107.508,0.0,1.0,6.825,
154.702,7.2008,0.0,112.25,112.754,0.0,1.0,7.2008,
155.752,7.74,0.0,117.491,117.991,0.0,1.0,7.74,
156.802,8.796,0.0,122.733,123.229,0.0,1.0,8.796,
157.852,11.1884,0.0,127.975,128.466,0.0,1.0,11.1884,
158.902,8.0606,0.0,133.212,133.712,0.0,1.0,8.0606,
159.952,8.3961,0.0,138.454,138.954,0.0,1.0,8.3961,
161.002,8.726,0.0,143.695,144.183,0.0,1.0,8.726,
162.052,9.0707,0.0,148.937,149.416,0.0,1.0,9.0707,
163.102,9.4154,0.0,154.179,154.637,0.0,1.0,9.4154,
164.152,9.7708,0.0,159.42,159.883,0.0,1.0,9.7708,
165.202,10.1065,0.0,164.662,165.12,0.0,1.0,10.1065,
166.252,10.4534,0.0,169.904,170.358,0.0,1.0,10.4534,
167.302,10.8193,0.0,175.145,175.6,0.0,1.0,10.8193,
168.352,11.1839,0.0,180.387,180.841,0.0,1.0,11.1839,
169.402,11.5359,0.0,185.629,186.087,0.0,1.0,11.5359,
170.452,11.8992,0.0,190.87,191.333,0.0,1.0,11.8992,
171.502,12.2589,0.0,196.112,196.579,0.0,1.0,12.2589,
172.552,11.2815,0.0,198.645,199.366,0.0,1.0,11.2815,
173.602,10.9499,0.0,193.404,194.145,0.0,1.0,10.9499,
174.652,10.5589,0.0,188.162,188.908,0.0,1.0,10.5589,
175.702,10.1759,0.0,182.92,183.67,0.0,1.0,10.1759,
176.752,9.819,0.0,177.679,178.425,0.0,1.0,9.819,
177.802,9.4984,0.0,172.437,173.191,0.0,1.0,9.4984,
178.852,9.1608,0.0,167.195,167.95,0.0,1.0,9.1608,
179.902,8.8073,0.0,161.954,162.712,0.0,1.0,8.8073,
180.952,8.4551,0.0,156.712,157.487,0.0,1.0,8.4551,
182.002,8.1112,0.0,151.47,152.258,0.0,1.0,8.1112,
183.052,7.7633,0.0,146.229,147.033,0.0,1.0,7.7633,
184.102,7.4282,0.0,140.987,141.808,0.0,1.0,7.4282,
185.152,7.1018,0.0,135.745,136.575,0.0,1.0,7.1018,
186.202,6.7798,0.0,130.504,131.337,0.0,1.0,6.7798,
187.252,6.4656,0.0,125.262,126.1,0.0,1.0,6.4656,
188.302,2.7677,0.0,120.02,120.879,0.0,1.0,2.7677,
189.352,4.1154,0.0,114.779,115.645,0.0,1.0,4.1154,
190.402,4.9156,0.0,109.537,110.42,0.0,1.0,4.9156,
191.452,4.8915,0.0,104.295,105.195,0.0,1.0,4.8915,
192.502,4.7353,0.0,99.054,99.97,0.0,1.0,4.7353,
193.552,4.5314,0.0,93.812,94.737,0.0,1.0,4.5314,
194.602,4.3105,0.0,88.575,89.52,0.0,1.0,4.3105,
195.652,4.0693,0.0,83.333,84.308,0.0,1.0,4.0693,
196.702,3.8525,0.0,78.091,79.07,0.0,1.0,3.8525,
197.752,3.6686,0.0,72.85,73.837,0.0,1.0,3.6686,
198.802,3.4622,0.0,67.608,68.608,0.0,1.0,3.4622,
199.852,3.2466,0.0,62.366,63.375,0.0,1.0,3.2466,
200.902,3.0268,0.0,57.125,58.17,0.0,1.0,3.0268,
201.952,2.8119,0.0,51.883,52.958,0.0,1.0,2.8119,
203.002,2.5979,0.0,46.641,47.766,0.0,1.0,2.5979,
204.052,2.3996,0.0,41.4,42.579,0.0,1.0,2.3996,
205.102,2.2035,0.0,36.158,37.404,0.0,1.0,2.2035,
206.152,2.0366,0.0,30.916,32.254,0.0,1.0,2.0366,
206.302,2.0151,0.0,30.166,31.516,0.0,1.0,2.0151,