Folder: phd_code/Chapter4_Crystallinity-measurement/data/DSC (part 2)

File: 501023_1.csv
Time,Unsubtracted Heat Flow,Baseline Heat Flow,Program Temperature,Sample Temperature,Approx. Gas Flow,Heat Flow Calibration,Uncorrected Heat Flow,
0.0,0.1077,0.0,30.0,45.916,0.0,1.0,0.1077,
2.666667,0.685,0.0,30.0,44.395,0.0,1.0,0.685,
5.333333,0.7763,0.0,33.254,44.204,0.0,1.0,0.7763,
8.0,0.8596,0.0,59.879,60.908,0.0,1.0,0.8596,
10.6667,1.5975,0.0,86.5,87.416,0.0,1.0,1.5975,
13.3333,2.3999,0.0,113.125,113.929,0.0,1.0,2.3999,
16.0,3.2644,0.0,139.745,140.512,0.0,1.0,3.2644,
18.6667,4.1926,0.0,166.37,167.083,0.0,1.0,4.1926,
21.3333,5.2341,0.0,192.991,193.687,0.0,1.0,5.2341,
24.0,6.4368,0.0,219.616,220.266,0.0,1.0,6.4368,
26.6667,7.7627,0.0,246.237,246.891,0.0,1.0,7.7627,
29.3333,9.2191,0.0,272.862,273.479,0.0,1.0,9.2191,
32.0,10.8761,0.0,299.483,300.104,0.0,1.0,10.8761,
34.6667,12.8866,0.0,326.108,326.716,0.0,1.0,12.8866,
37.3333,14.7284,0.0,352.729,353.333,0.0,1.0,14.7284,
40.0,16.9479,0.0,379.354,379.95,0.0,1.0,16.9479,
40.8443,16.3304,0.0,372.204,373.279,0.0,1.0,16.3304,
41.6443,15.5837,0.0,364.216,365.304,0.0,1.0,15.5837,
42.4443,14.8735,0.0,356.229,357.333,0.0,1.0,14.8735,
43.2443,14.196,0.0,348.241,349.35,0.0,1.0,14.196,
44.0443,13.5457,0.0,340.254,341.366,0.0,1.0,13.5457,
44.8443,12.926,0.0,332.266,333.383,0.0,1.0,12.926,
45.6443,12.334,0.0,324.283,325.412,0.0,1.0,12.334,
46.4443,11.7675,0.0,316.295,317.445,0.0,1.0,11.7675,
47.2443,11.221,0.0,308.308,309.466,0.0,1.0,11.221,
48.0443,10.5638,0.0,300.32,301.491,0.0,1.0,10.5638,
48.8443,9.9176,0.0,292.333,293.504,0.0,1.0,9.9176,
49.6443,9.6308,0.0,284.345,285.52,0.0,1.0,9.6308,
50.4443,9.1937,0.0,276.362,277.545,0.0,1.0,9.1937,
51.2443,8.7557,0.0,268.375,269.566,0.0,1.0,8.7557,
52.0443,8.3284,0.0,260.387,261.595,0.0,1.0,8.3284,
52.8443,7.9147,0.0,252.4,253.637,0.0,1.0,7.9147,
53.6443,7.5104,0.0,244.412,245.67,0.0,1.0,7.5104,
54.4443,7.12,0.0,236.425,237.683,0.0,1.0,7.12,
55.2443,6.7419,0.0,228.437,229.704,0.0,1.0,6.7419,
56.0443,6.3756,0.0,220.454,221.737,0.0,1.0,6.3756,
56.8443,6.0266,0.0,212.466,213.766,0.0,1.0,6.0266,
57.6443,5.6856,0.0,204.479,205.8,0.0,1.0,5.6856,
58.4443,5.3614,0.0,196.491,197.845,0.0,1.0,5.3614,
59.2443,5.0507,0.0,188.504,189.883,0.0,1.0,5.0507,
60.0443,4.7486,0.0,180.516,181.904,0.0,1.0,4.7486,
60.8443,4.4579,0.0,172.529,173.941,0.0,1.0,4.4579,
61.6443,4.176,0.0,164.545,165.975,0.0,1.0,4.176,
62.4443,3.9067,0.0,156.558,158.008,0.0,1.0,3.9067,
63.2443,3.6528,0.0,148.57,150.058,0.0,1.0,3.6528,
64.0443,3.4073,0.0,140.583,142.112,0.0,1.0,3.4073,
64.8443,3.1723,0.0,132.595,134.154,0.0,1.0,3.1723,
65.6443,2.9444,0.0,124.608,126.195,0.0,1.0,2.9444,
66.4443,2.724,0.0,116.62,118.258,0.0,1.0,2.724,
67.2443,2.5156,0.0,108.637,110.325,0.0,1.0,2.5156,
68.0443,2.3261,0.0,100.65,102.4,0.0,1.0,2.3261,
68.8443,2.1449,0.0,92.662,94.495,0.0,1.0,2.1449,
69.6443,1.9909,0.0,84.675,86.604,0.0,1.0,1.9909,
70.4443,1.873,0.0,76.687,78.72,0.0,1.0,1.873,
71.2443,1.8147,0.0,68.7,70.87,0.0,1.0,1.8147,
72.0443,1.9602,0.0,60.716,63.095,0.0,1.0,1.9602,
72.8443,1.2535,0.0,52.729,57.07,0.0,1.0,1.2535,
73.6443,0.9388,0.0,44.741,53.833,0.0,1.0,0.9388,
74.4443,0.6591,0.0,36.754,52.087,0.0,1.0,0.6591,
75.5325,0.4287,0.0,30.0,50.925,0.0,1.0,0.4287,
78.1992,0.4144,0.0,30.0,50.112,0.0,1.0,0.4144,
80.3502,0.4806,0.0,32.204,49.966,0.0,1.0,0.4806,
81.1502,0.7215,0.0,40.191,49.941,0.0,1.0,0.7215,
81.9502,-0.6068,0.0,48.175,49.929,0.0,1.0,-0.6068,
82.7502,0.4748,0.0,56.162,57.412,0.0,1.0,0.4748,
83.5502,0.6938,0.0,64.15,65.316,0.0,1.0,0.6938,
84.3502,0.913,0.0,72.137,73.25,0.0,1.0,0.913,
85.1502,1.1306,0.0,80.125,81.195,0.0,1.0,1.1306,
85.9502,1.3503,0.0,88.112,89.145,0.0,1.0,1.3503,
86.7502,1.5802,0.0,96.1,97.087,0.0,1.0,1.5802,
87.5502,1.8103,0.0,104.083,105.041,0.0,1.0,1.8103,
88.3502,2.0536,0.0,112.07,112.995,0.0,1.0,2.0536,
89.1502,2.2991,0.0,120.058,120.958,0.0,1.0,2.2991,
89.9502,2.5493,0.0,128.045,128.929,0.0,1.0,2.5493,
90.7502,2.8136,0.0,136.033,136.904,0.0,1.0,2.8136,
91.5502,3.0895,0.0,144.02,144.879,0.0,1.0,3.0895,
92.3502,3.3749,0.0,152.008,152.837,0.0,1.0,3.3749,
93.1502,3.6605,0.0,159.991,160.812,0.0,1.0,3.6605,
93.9502,3.9497,0.0,167.979,168.791,0.0,1.0,3.9497,
94.7502,4.2484,0.0,175.966,176.766,0.0,1.0,4.2484,
95.5502,4.5563,0.0,183.954,184.741,0.0,1.0,4.5563,
96.3502,4.8824,0.0,191.941,192.729,0.0,1.0,4.8824,
97.1502,5.2123,0.0,199.929,200.691,0.0,1.0,5.2123,
97.9502,5.5538,0.0,207.916,208.666,0.0,1.0,5.5538,
98.7502,5.9066,0.0,215.9,216.645,0.0,1.0,5.9066,
99.5502,6.2724,0.0,223.887,224.625,0.0,1.0,6.2724,
100.35,6.6546,0.0,231.875,232.604,0.0,1.0,6.6546,
101.15,7.0479,0.0,239.862,240.595,0.0,1.0,7.0479,
101.95,7.4526,0.0,247.85,248.575,0.0,1.0,7.4526,
102.75,7.8766,0.0,255.837,256.545,0.0,1.0,7.8766,
103.55,8.3089,0.0,263.82,264.516,0.0,1.0,8.3089,
104.35,8.7566,0.0,271.808,272.5,0.0,1.0,8.7566,
105.15,9.2209,0.0,279.795,280.491,0.0,1.0,9.2209,
105.95,9.7009,0.0,287.783,288.47,0.0,1.0,9.7009,
106.75,10.2002,0.0,295.77,296.454,0.0,1.0,10.2002,
107.55,10.7,0.0,303.758,304.454,0.0,1.0,10.7,
108.35,11.2244,0.0,311.745,312.441,0.0,1.0,11.2244,
109.15,11.794,0.0,319.729,320.416,0.0,1.0,11.794,
109.95,12.4178,0.0,327.716,328.395,0.0,1.0,12.4178,
110.75,13.2397,0.0,335.704,336.366,0.0,1.0,13.2397,
111.55,13.4655,0.0,343.691,344.358,0.0,1.0,13.4655,
112.35,13.9977,0.0,351.679,352.35,0.0,1.0,13.9977,
113.15,14.6265,0.0,359.666,360.35,0.0,1.0,14.6265,
113.95,15.2607,0.0,367.654,368.325,0.0,1.0,15.2607,
114.75,15.9355,0.0,375.637,376.3,0.0,1.0,15.9355,
115.55,16.0832,0.0,376.37,377.508,0.0,1.0,16.0832,
116.35,15.3354,0.0,368.383,369.541,0.0,1.0,15.3354,
117.15,14.6284,0.0,360.395,361.575,0.0,1.0,14.6284,
117.95,13.9591,0.0,352.412,353.583,0.0,1.0,13.9591,
118.75,13.3188,0.0,344.425,345.595,0.0,1.0,13.3188,
119.55,12.7104,0.0,336.437,337.616,0.0,1.0,12.7104,
120.35,12.1278,0.0,328.45,329.65,0.0,1.0,12.1278,
121.15,11.567,0.0,320.462,321.683,0.0,1.0,11.567,
121.95,11.0239,0.0,312.475,313.712,0.0,1.0,11.0239,
122.75,10.4969,0.0,304.491,305.729,0.0,1.0,10.4969,
123.55,8.3878,0.0,296.504,297.75,0.0,1.0,8.3878,
124.35,9.3941,0.0,288.516,289.758,0.0,1.0,9.3941,
125.15,8.993,0.0,280.529,281.783,0.0,1.0,8.993,
125.95,8.5627,0.0,272.541,273.808,0.0,1.0,8.5627,
126.75,8.1419,0.0,264.554,265.833,0.0,1.0,8.1419,
127.55,7.7282,0.0,256.566,257.866,0.0,1.0,7.7282,
128.35,7.3305,0.0,248.583,249.908,0.0,1.0,7.3305,
129.15,6.9455,0.0,240.595,241.929,0.0,1.0,6.9455,
129.95,6.573,0.0,232.608,233.945,0.0,1.0,6.573,
130.75,6.2151,0.0,224.62,225.975,0.0,1.0,6.2151,
131.55,5.8697,0.0,216.633,218.004,0.0,1.0,5.8697,
132.35,5.5374,0.0,208.645,210.037,0.0,1.0,5.5374,
133.15,5.216,0.0,200.658,202.075,0.0,1.0,5.216,
133.95,4.9087,0.0,192.675,194.12,0.0,1.0,4.9087,
134.75,4.6111,0.0,184.687,186.15,0.0,1.0,4.6111,
135.55,4.3224,0.0,176.7,178.179,0.0,1.0,4.3224,
136.35,4.0461,0.0,168.712,170.216,0.0,1.0,4.0461,
137.15,3.7813,0.0,160.725,162.254,0.0,1.0,3.7813,
137.95,3.5279,0.0,152.737,154.295,0.0,1.0,3.5279,
138.75,3.2895,0.0,144.75,146.345,0.0,1.0,3.2895,
139.55,3.0613,0.0,136.766,138.404,0.0,1.0,3.0613,
140.35,2.8408,0.0,128.779,130.45,0.0,1.0,2.8408,
141.15,2.6263,0.0,120.791,122.5,0.0,1.0,2.6263,
141.95,2.4212,0.0,112.804,114.57,0.0,1.0,2.4212,
142.75,2.2317,0.0,104.816,106.645,0.0,1.0,2.2317,
143.55,2.0573,0.0,96.829,98.737,0.0,1.0,2.0573,
144.35,1.9052,0.0,88.845,90.85,0.0,1.0,1.9052,
145.15,1.7877,0.0,80.858,82.983,0.0,1.0,1.7877,
145.95,1.7371,0.0,72.87,75.129,0.0,1.0,1.7371,
146.75,1.8876,0.0,64.883,67.358,0.0,1.0,1.8876,
147.55,1.1889,0.0,56.895,61.25,0.0,1.0,1.1889,
148.35,0.873,0.0,48.908,57.975,0.0,1.0,0.873,
149.15,0.5928,0.0,40.92,56.212,0.0,1.0,0.5928,
149.95,0.3317,0.0,32.937,55.254,0.0,1.0,0.3317,
151.931,0.2273,0.0,30.0,54.329,0.0,1.0,0.2273,
154.5975,0.227,0.0,30.0,54.02,0.0,1.0,0.227,
155.856,0.41,0.0,36.02,53.95,0.0,1.0,0.41,
156.656,0.6522,0.0,44.008,53.912,0.0,1.0,0.6522,
157.456,-0.3548,0.0,51.995,53.883,0.0,1.0,-0.3548,
158.256,0.3921,0.0,59.983,61.316,0.0,1.0,0.3921,
159.056,0.6124,0.0,67.966,69.225,0.0,1.0,0.6124,
159.856,0.8291,0.0,75.954,77.162,0.0,1.0,0.8291,
160.656,1.0462,0.0,83.941,85.104,0.0,1.0,1.0462,
161.456,1.268,0.0,91.929,93.033,0.0,1.0,1.268,
162.256,1.4983,0.0,99.916,100.97,0.0,1.0,1.4983,
163.056,1.7335,0.0,107.904,108.925,0.0,1.0,1.7335,
163.856,1.9776,0.0,115.887,116.883,0.0,1.0,1.9776,
164.656,2.2234,0.0,123.875,124.845,0.0,1.0,2.2234,
165.456,2.4816,0.0,131.862,132.808,0.0,1.0,2.4816,
166.256,2.7517,0.0,139.85,140.795,0.0,1.0,2.7517,
167.056,3.032,0.0,147.837,148.75,0.0,1.0,3.032,
167.856,3.3131,0.0,155.825,156.716,0.0,1.0,3.3131,
168.656,3.6058,0.0,163.812,164.687,0.0,1.0,3.6058,
169.456,3.8964,0.0,171.795,172.662,0.0,1.0,3.8964,
170.256,4.2052,0.0,179.783,180.637,0.0,1.0,4.2052,
171.056,4.5207,0.0,187.77,188.616,0.0,1.0,4.5207,
171.856,4.849,0.0,195.758,196.6,0.0,1.0,4.849,
172.656,5.1814,0.0,203.745,204.57,0.0,1.0,5.1814,
173.456,5.53,0.0,211.733,212.537,0.0,1.0,5.53,
174.256,5.8905,0.0,219.72,220.512,0.0,1.0,5.8905,
175.056,6.2639,0.0,227.704,228.491,0.0,1.0,6.2639,
175.856,6.6507,0.0,235.691,236.479,0.0,1.0,6.6507,
176.656,7.0489,0.0,243.679,244.466,0.0,1.0,7.0489,
177.456,7.4604,0.0,251.666,252.445,0.0,1.0,7.4604,
178.256,7.888,0.0,259.654,260.412,0.0,1.0,7.888,
179.056,8.331,0.0,267.641,268.383,0.0,1.0,8.331,
179.856,8.7879,0.0,275.629,276.366,0.0,1.0,8.7879,
180.656,9.2625,0.0,283.612,284.35,0.0,1.0,9.2625,
181.456,9.7541,0.0,291.6,292.337,0.0,1.0,9.7541,
182.256,10.2606,0.0,299.587,300.333,0.0,1.0,10.2606,
183.056,10.7725,0.0,307.575,308.316,0.0,1.0,10.7725,
183.856,11.3177,0.0,315.562,316.304,0.0,1.0,11.3177,
184.656,11.9074,0.0,323.55,324.283,0.0,1.0,11.9074,
185.456,12.5957,0.0,331.533,332.258,0.0,1.0,12.5957,
186.256,13.4236,0.0,339.52,340.241,0.0,1.0,13.4236,
187.056,13.5104,0.0,347.508,348.225,0.0,1.0,13.5104,
187.856,14.1249,0.0,355.495,356.22,0.0,1.0,14.1249,
188.656,14.7675,0.0,363.483,364.204,0.0,1.0,14.7675,
189.456,15.4212,0.0,371.47,372.179,0.0,1.0,15.4212,
190.256,16.1082,0.0,379.458,380.166,0.0,1.0,16.1082,
190.306,16.1511,0.0,379.954,380.662,0.0,1.0,16.1511,

File: 501023_2.csv
Time,Unsubtracted Heat Flow,Baseline Heat Flow,Program Temperature,Sample Temperature,Approx. Gas Flow,Heat Flow Calibration,Uncorrected Heat Flow,
0.0,-0.2802,0.0,30.0,56.65,0.0,1.0,-0.2802,
2.666667,0.0579,0.0,30.0,55.687,0.0,1.0,0.0579,
5.333333,0.1594,0.0,33.254,55.445,0.0,1.0,0.1594,
8.0,0.1585,0.0,59.879,61.262,0.0,1.0,0.1585,
10.6667,0.7328,0.0,86.5,87.683,0.0,1.0,0.7328,
13.3333,1.3555,0.0,113.125,114.158,0.0,1.0,1.3555,
16.0,2.0932,0.0,139.745,140.72,0.0,1.0,2.0932,
18.6667,2.869,0.0,166.37,167.275,0.0,1.0,2.869,
21.3333,3.7432,0.0,192.991,193.866,0.0,1.0,3.7432,
24.0,4.755,0.0,219.616,220.433,0.0,1.0,4.755,
26.6667,5.95,0.0,246.237,247.041,0.0,1.0,5.95,
29.3333,7.2409,0.0,272.862,273.629,0.0,1.0,7.2409,
32.0,8.7455,0.0,299.483,300.25,0.0,1.0,8.7455,
34.6667,10.6177,0.0,326.108,326.858,0.0,1.0,10.6177,
37.3333,12.2623,0.0,352.729,353.47,0.0,1.0,12.2623,
40.0,14.3387,0.0,379.354,380.079,0.0,1.0,14.3387,
40.8443,13.7393,0.0,372.204,373.412,0.0,1.0,13.7393,
41.6443,13.0574,0.0,364.216,365.441,0.0,1.0,13.0574,
42.4443,12.4169,0.0,356.229,357.47,0.0,1.0,12.4169,
43.2443,11.8043,0.0,348.241,349.483,0.0,1.0,11.8043,
44.0443,11.2095,0.0,340.258,341.504,0.0,1.0,11.2095,
44.8443,10.632,0.0,332.27,333.525,0.0,1.0,10.632,
45.6443,10.0756,0.0,324.283,325.55,0.0,1.0,10.0756,
46.4443,9.5456,0.0,316.295,317.583,0.0,1.0,9.5456,
47.2443,9.0396,0.0,308.308,309.608,0.0,1.0,9.0396,
48.0443,8.3644,0.0,300.32,301.633,0.0,1.0,8.3644,
48.8443,7.7975,0.0,292.333,293.654,0.0,1.0,7.7975,
49.6443,7.6185,0.0,284.35,285.662,0.0,1.0,7.6185,
50.4443,7.2659,0.0,276.362,277.687,0.0,1.0,7.2659,
51.2443,6.9029,0.0,268.375,269.712,0.0,1.0,6.9029,
52.0443,6.5466,0.0,260.387,261.741,0.0,1.0,6.5466,
52.8443,6.2018,0.0,252.4,253.787,0.0,1.0,6.2018,
53.6443,5.8674,0.0,244.412,245.816,0.0,1.0,5.8674,
54.4443,5.5468,0.0,236.425,237.829,0.0,1.0,5.5468,
55.2443,5.2377,0.0,228.441,229.854,0.0,1.0,5.2377,
56.0443,4.9386,0.0,220.454,221.887,0.0,1.0,4.9386,
56.8443,4.6494,0.0,212.466,213.92,0.0,1.0,4.6494,
57.6443,4.3746,0.0,204.479,205.962,0.0,1.0,4.3746,
58.4443,4.1098,0.0,196.491,198.004,0.0,1.0,4.1098,
59.2443,3.8464,0.0,188.504,190.037,0.0,1.0,3.8464,
60.0443,3.5934,0.0,180.52,182.066,0.0,1.0,3.5934,
60.8443,3.3535,0.0,172.533,174.108,0.0,1.0,3.3535,
61.6443,3.1217,0.0,164.545,166.145,0.0,1.0,3.1217,
62.4443,2.9071,0.0,156.558,158.187,0.0,1.0,2.9071,
63.2443,2.7032,0.0,148.57,150.237,0.0,1.0,2.7032,
64.0443,2.5135,0.0,140.583,142.295,0.0,1.0,2.5135,
64.8443,2.3363,0.0,132.595,134.345,0.0,1.0,2.3363,
65.6443,2.1614,0.0,124.612,126.395,0.0,1.0,2.1614,
66.4443,1.9977,0.0,116.625,118.462,0.0,1.0,1.9977,
67.2443,1.8475,0.0,108.637,110.541,0.0,1.0,1.8475,
68.0443,1.7179,0.0,100.65,102.633,0.0,1.0,1.7179,
68.8443,1.5987,0.0,92.662,94.741,0.0,1.0,1.5987,
69.6443,1.5246,0.0,84.675,86.887,0.0,1.0,1.5246,
70.4443,1.5185,0.0,76.687,79.041,0.0,1.0,1.5185,
71.2443,1.713,0.0,68.704,71.266,0.0,1.0,1.713,
72.0443,1.0265,0.0,60.716,65.133,0.0,1.0,1.0265,
72.8443,0.7214,0.0,52.729,61.845,0.0,1.0,0.7214,
73.6443,0.4483,0.0,44.741,60.07,0.0,1.0,0.4483,
74.4443,0.1922,0.0,36.754,59.112,0.0,1.0,0.1922,
75.5325,-0.0213,0.0,30.0,58.445,0.0,1.0,-0.0213,
78.1992,-0.0219,0.0,30.0,57.895,0.0,1.0,-0.0219,
80.3502,0.0492,0.0,32.204,57.729,0.0,1.0,0.0492,
81.1502,0.2921,0.0,40.187,57.675,0.0,1.0,0.2921,
81.9502,0.5341,0.0,48.175,57.633,0.0,1.0,0.5341,
82.7502,-2.1728,0.0,56.162,57.833,0.0,1.0,-2.1728,
83.5502,0.2003,0.0,64.15,65.558,0.0,1.0,0.2003,
84.3502,0.3845,0.0,72.137,73.475,0.0,1.0,0.3845,
85.1502,0.5668,0.0,80.125,81.4,0.0,1.0,0.5668,
85.9502,0.7464,0.0,88.112,89.329,0.0,1.0,0.7464,
86.7502,0.9288,0.0,96.095,97.27,0.0,1.0,0.9288,
87.5502,1.1334,0.0,104.083,105.208,0.0,1.0,1.1334,
88.3502,1.337,0.0,112.07,113.158,0.0,1.0,1.337,
89.1502,1.5468,0.0,120.058,121.112,0.0,1.0,1.5468,
89.9502,1.7583,0.0,128.045,129.075,0.0,1.0,1.7583,
90.7502,1.9912,0.0,136.033,137.05,0.0,1.0,1.9912,
91.5502,2.2369,0.0,144.016,145.012,0.0,1.0,2.2369,
92.3502,2.4902,0.0,152.004,152.97,0.0,1.0,2.4902,
93.1502,2.7315,0.0,159.991,160.941,0.0,1.0,2.7315,
93.9502,3.0062,0.0,167.979,168.92,0.0,1.0,3.0062,
94.7502,3.2742,0.0,175.966,176.887,0.0,1.0,3.2742,
95.5502,3.5627,0.0,183.954,184.866,0.0,1.0,3.5627,
96.3502,3.8579,0.0,191.941,192.845,0.0,1.0,3.8579,
97.1502,4.1649,0.0,199.925,200.816,0.0,1.0,4.1649,
97.9502,4.4851,0.0,207.912,208.783,0.0,1.0,4.4851,
98.7502,4.8167,0.0,215.9,216.758,0.0,1.0,4.8167,
99.5502,5.1644,0.0,223.887,224.733,0.0,1.0,5.1644,
100.35,5.5279,0.0,231.875,232.716,0.0,1.0,5.5279,
101.15,5.9059,0.0,239.862,240.704,0.0,1.0,5.9059,
101.95,6.2918,0.0,247.85,248.687,0.0,1.0,6.2918,
102.75,6.6876,0.0,255.833,256.654,0.0,1.0,6.6876,
103.55,7.099,0.0,263.82,264.625,0.0,1.0,7.099,
104.35,7.5214,0.0,271.808,272.608,0.0,1.0,7.5214,
105.15,7.9567,0.0,279.795,280.587,0.0,1.0,7.9567,
105.95,8.4108,0.0,287.783,288.57,0.0,1.0,8.4108,
106.75,8.881,0.0,295.77,296.558,0.0,1.0,8.881,
107.55,9.3545,0.0,303.758,304.554,0.0,1.0,9.3545,
108.35,9.854,0.0,311.741,312.537,0.0,1.0,9.854,
109.15,10.3974,0.0,319.729,320.52,0.0,1.0,10.3974,
109.95,11.0095,0.0,327.716,328.491,0.0,1.0,11.0095,
110.75,11.8576,0.0,335.704,336.466,0.0,1.0,11.8576,
111.55,11.9603,0.0,343.691,344.45,0.0,1.0,11.9603,
112.35,12.4424,0.0,351.679,352.445,0.0,1.0,12.4424,
113.15,13.0344,0.0,359.662,360.441,0.0,1.0,13.0344,
113.95,13.6495,0.0,367.65,368.412,0.0,1.0,13.6495,
114.75,14.277,0.0,375.637,376.391,0.0,1.0,14.277,
115.55,14.3575,0.0,376.37,377.604,0.0,1.0,14.3575,
116.35,13.652,0.0,368.383,369.633,0.0,1.0,13.652,
117.15,12.9957,0.0,360.395,361.662,0.0,1.0,12.9957,
117.95,12.3739,0.0,352.408,353.679,0.0,1.0,12.3739,
118.75,11.7809,0.0,344.425,345.691,0.0,1.0,11.7809,
119.55,11.2138,0.0,336.437,337.712,0.0,1.0,11.2138,
120.35,10.6715,0.0,328.45,329.745,0.0,1.0,10.6715,
121.15,10.1548,0.0,320.462,321.775,0.0,1.0,10.1548,
121.95,9.6585,0.0,312.475,313.795,0.0,1.0,9.6585,
122.75,9.1731,0.0,304.487,305.82,0.0,1.0,9.1731,
123.55,6.4883,0.0,296.5,297.841,0.0,1.0,6.4883,
124.35,8.1322,0.0,288.516,289.858,0.0,1.0,8.1322,
125.15,7.7798,0.0,280.529,281.879,0.0,1.0,7.7798,
125.95,7.3981,0.0,272.541,273.904,0.0,1.0,7.3981,
126.75,7.0164,0.0,264.554,265.933,0.0,1.0,7.0164,
127.55,6.6476,0.0,256.566,257.958,0.0,1.0,6.6476,
128.35,6.2935,0.0,248.579,250.008,0.0,1.0,6.2935,
129.15,5.9494,0.0,240.595,242.033,0.0,1.0,5.9494,
129.95,5.6156,0.0,232.608,234.05,0.0,1.0,5.6156,
130.75,5.2901,0.0,224.62,226.079,0.0,1.0,5.2901,
131.55,4.9716,0.0,216.633,218.108,0.0,1.0,4.9716,
132.35,4.6632,0.0,208.645,210.141,0.0,1.0,4.6632,
133.15,4.3683,0.0,200.658,202.183,0.0,1.0,4.3683,
133.95,4.087,0.0,192.67,194.233,0.0,1.0,4.087,
134.75,3.8162,0.0,184.687,186.262,0.0,1.0,3.8162,
135.55,3.5576,0.0,176.7,178.295,0.0,1.0,3.5576,
136.35,3.3111,0.0,168.712,170.333,0.0,1.0,3.3111,
137.15,3.0754,0.0,160.725,162.37,0.0,1.0,3.0754,
137.95,2.8566,0.0,152.737,154.416,0.0,1.0,2.8566,
138.75,2.6493,0.0,144.75,146.475,0.0,1.0,2.6493,
139.55,2.4554,0.0,136.762,138.537,0.0,1.0,2.4554,
140.35,2.2687,0.0,128.779,130.583,0.0,1.0,2.2687,
141.15,2.0895,0.0,120.791,122.645,0.0,1.0,2.0895,
141.95,1.9238,0.0,112.804,114.72,0.0,1.0,1.9238,
142.75,1.7755,0.0,104.816,106.808,0.0,1.0,1.7755,
143.55,1.6455,0.0,96.829,98.912,0.0,1.0,1.6455,
144.35,1.5491,0.0,88.841,91.041,0.0,1.0,1.5491,
145.15,1.5065,0.0,80.854,83.2,0.0,1.0,1.5065,
145.95,1.6004,0.0,72.87,75.395,0.0,1.0,1.6004,
146.75,1.1304,0.0,64.883,68.354,0.0,1.0,1.1304,
147.55,0.8027,0.0,56.895,64.329,0.0,1.0,0.8027,
148.35,0.5204,0.0,48.908,62.175,0.0,1.0,0.5204,
149.15,0.2583,0.0,40.92,61.012,0.0,1.0,0.2583,
149.95,0.0081,0.0,32.933,60.366,0.0,1.0,0.0081,
151.931,-0.0851,0.0,30.0,59.7,0.0,1.0,-0.0851,
154.5975,-0.0794,0.0,30.0,59.404,0.0,1.0,-0.0794,
155.856,0.1048,0.0,36.025,59.308,0.0,1.0,0.1048,
156.656,0.3473,0.0,44.012,59.254,0.0,1.0,0.3473,
157.456,0.5905,0.0,51.995,59.208,0.0,1.0,0.5905,
158.256,-0.1569,0.0,59.983,61.508,0.0,1.0,-0.1569,
159.056,0.2529,0.0,67.97,69.395,0.0,1.0,0.2529,
159.856,0.4427,0.0,75.958,77.308,0.0,1.0,0.4427,
160.656,0.6304,0.0,83.945,85.245,0.0,1.0,0.6304,
161.456,0.8199,0.0,91.933,93.17,0.0,1.0,0.8199,
162.256,1.0203,0.0,99.92,101.108,0.0,1.0,1.0203,
163.056,1.2231,0.0,107.904,109.045,0.0,1.0,1.2231,
163.856,1.4306,0.0,115.891,116.995,0.0,1.0,1.4306,
164.656,1.6422,0.0,123.879,124.954,0.0,1.0,1.6422,
165.456,1.8619,0.0,131.866,132.92,0.0,1.0,1.8619,
166.256,2.093,0.0,139.854,140.895,0.0,1.0,2.093,
167.056,2.3471,0.0,147.841,148.85,0.0,1.0,2.3471,
167.856,2.6049,0.0,155.829,156.812,0.0,1.0,2.6049,
168.656,2.8499,0.0,163.812,164.787,0.0,1.0,2.8499,
169.456,3.1386,0.0,171.8,172.762,0.0,1.0,3.1386,
170.256,3.4081,0.0,179.787,180.733,0.0,1.0,3.4081,
171.056,3.7096,0.0,187.775,188.712,0.0,1.0,3.7096,
171.856,4.0139,0.0,195.762,196.695,0.0,1.0,4.0139,
172.656,4.3309,0.0,203.75,204.654,0.0,1.0,4.3309,
173.456,4.6569,0.0,211.737,212.625,0.0,1.0,4.6569,
174.256,4.9937,0.0,219.72,220.6,0.0,1.0,4.9937,
175.056,5.3328,0.0,227.708,228.57,0.0,1.0,5.3328,
175.856,5.6854,0.0,235.695,236.558,0.0,1.0,5.6854,
176.656,6.0605,0.0,243.683,244.55,0.0,1.0,6.0605,
177.456,6.4344,0.0,251.67,252.525,0.0,1.0,6.4344,
178.256,6.8366,0.0,259.658,260.491,0.0,1.0,6.8366,
179.056,7.2511,0.0,267.641,268.462,0.0,1.0,7.2511,
179.856,7.6793,0.0,275.629,276.441,0.0,1.0,7.6793,
180.656,8.1262,0.0,283.616,284.429,0.0,1.0,8.1262,
181.456,8.5935,0.0,291.604,292.416,0.0,1.0,8.5935,
182.256,9.0759,0.0,299.591,300.408,0.0,1.0,9.0759,
183.056,9.5621,0.0,307.579,308.395,0.0,1.0,9.5621,
183.856,10.0885,0.0,315.566,316.375,0.0,1.0,10.0885,
184.656,10.6642,0.0,323.55,324.35,0.0,1.0,10.6642,
185.456,11.3619,0.0,331.537,332.329,0.0,1.0,11.3619,
186.256,12.2635,0.0,339.525,340.308,0.0,1.0,12.2635,
187.056,12.1602,0.0,347.512,348.295,0.0,1.0,12.1602,
187.856,12.7431,0.0,355.5,356.287,0.0,1.0,12.7431,
188.656,13.3529,0.0,363.487,364.275,0.0,1.0,13.3529,
189.456,13.9883,0.0,371.475,372.245,0.0,1.0,13.9883,
190.256,14.6408,0.0,379.458,380.233,0.0,1.0,14.6408,
190.306,14.6826,0.0,379.958,380.733,0.0,1.0,14.6826,